Folder: OpenSO2/data_bases/ref

Note: README.md
# open_so2
Open Source SO2 flux software for volcano monitoring

File: ring.dat
# Ring Spectrum
# Source: Created using QDOAS
#         Danckaert, T., Fayt, C., and Van Roozendael, M.: QDOAS Software user manual, Tech. rep., Royal Belgian Institute for Space Aeronomy, http://uv-vis.aeronomie.be/software/QDOAS/, 2017.
#         From SAO 2010 Solar Atlas (Chance and Kurucz, 2010)
# Wavelength (nm),       Intensity Correction
302 2.68204
302.07 1.56744
302.14 5.84041
302.21 4.42411
302.28 1.18237
302.35 0.854469
302.42 0.622346
302.49 1.57666
302.56 0.733704
302.63 1.24352
302.7 1.7074
302.77 0.865814
302.84 0.540419
302.91 0.688619
302.98 0.821236
303.05 0.812246
303.12 0.934316
303.19 1.17843
303.26 1.71293
303.33 0.587738
303.4 0.790946
303.47 0.769466
303.54 1.13967
303.61 0.703013
303.68 0.78867
303.75 0.891953
303.82 4.313
303.89 2.35198
303.96 0.944085
304.03 0.912174
304.1 0.758706
304.17 1.52324
304.24 1.24251
304.31 1.24728
304.38 1.02688
304.45 0.754764
304.52 0.757878
304.59 1.08185
304.66 0.882002
304.73 0.688977
304.8 1.8374
304.87 3.13792
304.94 1.1354
305.01 0.823084
305.08 0.753697
305.15 1.45894
305.22 0.723419
305.29 0.549443
305.36 0.601369
305.43 0.967861
305.5 1.16832
305.57 0.911604
305.64 0.915142
305.71 0.864991
305.78 1.27436
305.85 4.66349
305.92 1.38745
305.99 3.85109
306.06 1.28767
306.13 1.08469
306.2 0.740072
306.27 0.77725
306.34 0.649707
306.41 0.853073
306.48 1.25084
306.55 1.26726
306.62 0.791708
306.69 1.19071
306.76 1.06031
306.83 2.0594
306.9 1.16104
306.97 0.901266
307.04 0.833867
307.11 0.927089
307.18 0.726023
307.25 0.738442
307.32 1.70286
307.39 1.23489
307.46 0.721025
307.53 0.91648
307.6 1.33168
307.67 2.30492
307.74 0.667109
307.81 0.870321
307.88 1.03876
307.95 2.08947
308.02 0.695658
308.09 0.998186
308.16 1.00535
308.23 1.2017
308.3 2.00569
308.37 0.862064
308.44 1.51816
308.51 0.659485
308.58 0.694553
308.65 0.67412
308.72 0.812214
308.79 0.973804
308.86 1.05572
308.93 0.911204
309 0.693218
309.07 1.3174
309.14 0.915838
309.21 2.0431
309.28 0.966713
309.35 2.52797
309.42 1.93878
309.49 1.17011
309.56 0.749497
309.63 0.742325
309.7 1.1423
309.77 2.46492
309.84 1.01406
309.91 0.902158
309.98 0.933277
310.05 1.41893
310.12 3.06011
310.19 1.60982
310.26 2.95574
310.33 1.32209
310.4 0.734498
310.47 0.884718
310.54 0.787553
310.61 0.8645
310.68 0.774636
310.75 0.760624
310.82 0.763437
310.89 0.702366
310.96 0.75934
311.03 0.798356
311.1 1.12943
311.17 1.46763
311.24 0.678206
311.31 1.08386
311.38 0.656175
311.45 1.04162
311.52 1.30486
311.59 0.825371
311.66 0.786088
311.73 1.42565
311.8 1.20295
311.87 1.25203
311.94 1.56927
312.01 0.991566
312.08 1.09562
312.15 1.29135
312.22 1.08413
312.29 1.23756
312.36 1.00049
312.43 0.950219
312.5 0.783574
312.57 1.10433
312.64 1.25243
312.71 1.09663
312.78 0.957941
312.85 0.913773
312.92 0.975189
312.99 1.11081
313.06 0.681403
313.13 1.63652
313.2 0.908229
313.27 0.912557
313.34 1.1518
313.41 1.17614
313.48 1.16369
313.55 1.09297
313.62 0.877031
313.69 0.879794
313.76 1.52451
313.83 0.80242
313.9 0.688846
313.97 0.812093
314.04 0.706663
314.11 0.84616
314.18 0.807046
314.25 0.708349
314.32 0.893707
314.39 1.2424
314.46 3.54761
314.53 3.21672
314.6 1.52126
314.67 1.26528
314.74 1.0794
314.81 1.35933
314.88 1.02429
314.95 0.735483
315.02 0.682832
315.09 1.09117
315.16 0.741276
315.23 0.877449
315.3 1.16786
315.37 0.709189
315.44 0.66359
315.51 1.0501
315.58 0.72387
315.65 0.921877
315.72 0.954414
315.79 1.84816
315.86 1.59352
315.93 1.4731
316 1.9302
316.07 1.25765
316.14 1.27005
316.21 1.6459
316.28 1.50457
316.35 1.45368
316.42 0.855758
316.49 1.09959
316.56 1.09607
316.63 0.849058
316.7 1.1633
316.77 1.04663
316.84 0.654872
316.91 1.12879
316.98 1.17449
317.05 1.01668
317.12 0.836174
317.19 0.633467
317.26 0.749706
317.33 0.682739
317.4 0.759578
317.47 0.779325
317.54 0.88055
317.61 1.00703
317.68 0.660176
317.75 0.694817
317.82 0.814497
317.89 1.23222
317.96 1.09974
318.03 2.90455
318.1 1.63847
318.17 1.31282
318.24 2.18032
318.31 1.36326
318.38 1.38336
318.45 1.0434
318.52 1.2558
318.59 1.26105
318.66 0.740303
318.73 1.06708
318.8 0.883394
318.87 0.852605
318.94 1.20051
319.01 0.534319
319.08 0.731428
319.15 0.901043
319.22 0.929217
319.29 1.62699
319.36 2.01469
319.43 1.18511
319.5 1.04308
319.57 0.993422
319.64 0.944673
319.71 1.27581
319.78 1.64363
319.85 1.05077
319.92 0.785645
319.99 0.639746
320.06 1.05295
320.13 1.74595
320.2 0.869984
320.27 0.689481
320.34 1.44958
320.41 0.710614
320.48 0.807428
320.55 0.600725
320.62 1.32593
320.69 0.793778
320.76 0.712179
320.83 0.786306
320.9 0.79861
320.97 1.03608
321 1.20363