Folder: OpenSO2/data_bases/Ref

Note: data_bases/Ref/flat_FLMS02929.txt
# Flat spectrum for spectrometer FLMS02929
# Wavelength (nm), Flat response
3.050389883632025203e+02 1.011072434865490699e+00
3.051161007742084053e+02 9.973845024423818595e-01
3.051932027328401205e+02 9.956546023376271481e-01
3.052702942390976091e+02 9.987474872015604799e-01
3.053473752929809280e+02 9.962685537992419516e-01
3.054244458944900202e+02 9.934054530269426087e-01
3.055015060436249428e+02 9.890086040368470943e-01
3.055785557403856387e+02 9.959770702304823198e-01
3.056555949847721081e+02 9.991577321393343425e-01
3.057326237767844646e+02 1.000800943984464286e+00
3.058096421164225376e+02 9.925030386771609425e-01
3.058866500036863840e+02 9.913620587416767105e-01
3.059636474385761176e+02 9.970018550948192004e-01
3.060406344210916245e+02 1.002730245680245158e+00
3.061176109512329049e+02 9.995858533105247412e-01
3.061945770290000155e+02 9.916715651548511090e-01
3.062715326543929564e+02 9.927767621499660189e-01
3.063484778274116138e+02 1.002999330903254105e+00
3.064254125480561015e+02 1.001395624974006804e+00
3.065023368163264195e+02 1.008232427159603262e+00
3.065792506322225108e+02 1.004316515844767999e+00
3.066561539957444325e+02 1.000090300296729406e+00
3.067330469068921275e+02 1.008251675722492191e+00
3.068099293656655959e+02 1.003277799191526487e+00
3.068868013720649515e+02 9.976320292968496872e-01
3.069636629260900236e+02 1.003341047164716615e+00
3.070405140277409259e+02 1.005907666424463276e+00
3.071173546770176017e+02 1.009903339891709440e+00
3.071941848739201077e+02 1.010302921516814889e+00
3.072710046184483872e+02 1.006056194971067130e+00
3.073478139106024969e+02 1.002603542620631893e+00
3.074246127503824368e+02 9.976753321897348092e-01
3.075014011377880934e+02 1.003191010814252548e+00
3.075781790728195801e+02 1.005599700473256641e+00
3.076549465554768972e+02 9.991229757426758340e-01
3.077317035857600445e+02 9.969289570604396022e-01
3.078084501636689083e+02 1.001045018911751017e+00
3.078851862892036024e+02 1.003368568110263981e+00
3.079619119623640700e+02 1.002762834394577585e+00
3.080386271831504246e+02 9.946048584538779158e-01
3.081153319515624958e+02 1.008505213798478906e+00
3.081920262676003972e+02 9.928154218974766243e-01
3.082687101312641289e+02 9.942275748018865045e-01
3.083453835425536340e+02 9.987350251230828757e-01
3.084220465014689125e+02 9.896947832721348925e-01
3.084986990080099645e+02 9.957630446488234810e-01
3.085753410621769035e+02 9.968551134529344271e-01
3.086519726639696160e+02 1.006068508748894086e+00
3.087285938133881018e+02 9.910713389230207948e-01
3.088052045104323611e+02 9.975910496508921810e-01
3.088818047551025074e+02 9.968093931310375577e-01
3.089583945473984272e+02 1.004905731303355365e+00
3.090349738873201204e+02 1.000546605337778727e+00
3.091115427748676439e+02 1.001194295873780948e+00
3.091881012100409407e+02 9.995476791392924332e-01
3.092646491928400110e+02 9.950095634933063815e-01
3.093411867232649115e+02 1.002100897805245028e+00
3.094177138013156423e+02 9.939583721621924051e-01
3.094942304269920896e+02

Note: data_bases/Ref/flat_I2J5046.txt
# Flat spectrum for spectrometer I2J5046
# Wavelength (nm), Flat response
3.050299999999999727e+02 9.993694802892171269e-01
3.050699999999999932e+02 9.992547258930043474e-01
3.051200000000000045e+02 1.002101841787444991e+00
3.051600000000000250e+02 1.006978565034179818e+00
3.052099999999999795e+02 1.006418264020276787e+00
3.052599999999999909e+02 1.001040961527205120e+00
3.053000000000000114e+02 9.986611800159166386e-01
3.053500000000000227e+02 1.000548379567091084e+00
3.053999999999999773e+02 1.001949445648697479e+00
3.054399999999999977e+02 9.962199096059221048e-01
3.054900000000000091e+02 9.972511184038711507e-01
3.055299999999999727e+02 9.989484484100172867e-01
3.055799999999999841e+02 1.001056974858509196e+00
3.056299999999999955e+02 9.969575758778694841e-01
3.056700000000000159e+02 9.958682962091920388e-01
3.057200000000000273e+02 9.964114525542753231e-01
3.057599999999999909e+02 9.980662001535456351e-01
3.058100000000000023e+02 9.999102259422645300e-01
3.058600000000000136e+02 1.001451708329151868e+00
3.058999999999999773e+02 1.004269115676221791e+00
3.059499999999999886e+02 1.003993415853238869e+00
3.059900000000000091e+02 1.003299224852261640e+00
3.060400000000000205e+02 9.996612372267150715e-01
3.060899999999999750e+02 1.001826124121644179e+00
3.061299999999999955e+02 1.002223149270724312e+00
3.061800000000000068e+02 1.000923171906363152e+00
3.062200000000000273e+02 9.960658519335455763e-01
3.062699999999999818e+02 9.914150010032924953e-01
3.063199999999999932e+02 9.922695602976007168e-01
3.063600000000000136e+02 9.972947029087264603e-01
3.064100000000000250e+02 1.002655084841962863e+00
3.064499999999999886e+02 1.003350399832610984e+00
3.065000000000000000e+02 9.987111695846757620e-01
3.065500000000000114e+02 9.995027797104001355e-01
3.065899999999999750e+02 1.002975742149675442e+00
3.066399999999999864e+02 1.004515237435293917e+00
3.066800000000000068e+02 1.002473386187086257e+00
3.067300000000000182e+02 1.002769879869159997e+00
3.067699999999999818e+02 1.005640955216832388e+00
3.068199999999999932e+02 1.005555297312902940e+00
3.068700000000000045e+02 1.003377930787187067e+00
3.069100000000000250e+02 1.000182092447385651e+00
3.069599999999999795e+02 1.000695371654433563e+00
3.070000000000000000e+02 9.999259290839125347e-01
3.070500000000000114e+02 1.000228707621887203e+00
3.070899999999999750e+02 9.962473509706195607e-01
3.071399999999999864e+02 9.934058744399321128e-01
3.071899999999999977e+02 9.927982836420750079e-01
3.072300000000000182e+02 9.957428026599348669e-01
3.072799999999999727e+02 9.993760802438781399e-01
3.073199999999999932e+02 9.964935304029574059e-01
3.073700000000000045e+02 9.970047063815373756e-01
3.074100000000000250e+02 9.974277043585496605e-01
3.074599999999999795e+02 1.002635856848639095e+00
3.075099999999999909e+02 1.002545674882974858e+00
3.075500000000000114e+02 1.004272705538683086e+00
3.076000000000000227e+02 1.005475959725636637e+00
3.076399999999999864e+02 1.005141552404553718e+00
3.076899999999999977e+02 1

Note: data_bases/Ref/ils_params_FLMS02929.txt
# ILS parameters for FLMS02929 (FWEM, k, a_w, a_k)
0.72
2.04
-0.04
-0.75

Note: README.md
# open_so2
Open Source SO2 flux software for volcano monitoring

File: sol.txt
# Solar Atlas
# Source: Chance, K. and Kurucz, R. L. Journal of Quantitative Spectroscopy and Radiative Transfer, 111, 1289â€“1295, https://doi.org/10.1016/j.jqsrt.2010.01.036, 2010.
# Interpolated by cublic spline
# Wavelength (nm),       Intensity (Photons s-1 cm-2 nm-1)
302 3877.78
302.07 6819.96
302.14 1782.51
302.21 2395.02
302.28 8949.57
302.35 11745.8
302.42 15908.2
302.49 6555.57
302.56 13232.4
302.63 8308.16
302.7 6041.5
302.77 11905.3
302.84 19070
302.91 15605.3
302.98 12935.6
303.05 13942
303.12 12001.1
303.19 9867.05
303.26 6854.9
303.33 19782
303.4 15246.1
303.47 15378.5
303.54 10707
303.61 17285.4
303.68 15689
303.75 14443.1
303.82 2917.04
303.89 5349.55
303.96 13736.4
304.03 13671.3
304.1 16120.7
304.17 8376.1
304.24 9645.98
304.31 9787.83
304.38 11502.2
304.45 16067.5
304.52 15075.9
304.59 10670.1
304.66 14071
304.73 17035.8
304.8 6784.28
304.87 4087.85
304.94 10634.9
305.01 14821.2
305.08 16200.4
305.15 7663.5
305.22 15730
305.29 20092.1
305.36 18340.1
305.43 11185.8
305.5 9719.85
305.57 12438.3
305.64 12728.7
305.71 13582.3
305.78 9654.67
305.85 2578.59
305.92 8933.92
305.99 3158.67
306.06 9157.3
306.13 10546.6
306.2 15289.7
306.27 13834.6
306.34 16596
306.41 12513.3
306.48 8691.43
306.55 8555.69
306.62 14009.7
306.69 9698.28
306.76 11017
306.83 5466.89
306.9 10520.9
306.97 12624.5
307.04 13475.3
307.11 13107.7
307.18 15809.4
307.25 15767.5
307.32 7230.66
307.39 9077.87
307.46 16998.3
307.53 13074.9
307.6 8940.22
307.67 5388.93
307.74 17958.7
307.81 14706.3
307.88 11646.7
307.95 5987.04
308.02 18141.9
308.09 12496.2
308.16 12752.1
308.23 10643.2
308.3 6376.23
308.37 14579.7
308.44 8355.83
308.51 17605.8
308.58 17756.9
308.65 16614.8
308.72 14452.3
308.79 11946.4
308.86 11094.5
308.93 13115.7
309 16664.7
309.07 9085.05
309.14 12621.7
309.21 5652.41
309.28 12263
309.35 4483
309.42 5978.87
309.49 9228.86
309.56 14954.1
309.63 13786.8
309.7 9328.52
309.77 4201.31
309.84 10489.3
309.91 11999.4
309.98 11931.3
310.05 7959.07
310.12 3858.09
310.19 7541.86
310.26 3979.6
310.33 9559.07
310.4 16007.6
310.47 13583.5
310.54 15261.2
310.61 13592.4
310.68 15625.6
310.75 15994.4
310.82 16062.4
310.89 18206.3
310.96 17107.9
311.03 16482.8
311.1 12361.4
311.17 9250.09
311.24 20627.1
311.31 12770.3
311.38 21437.2
311.45 13051
311.52 10809.3
311.59 17312.4
311.66 18277.7
311.73 10380.5
311.8 12429.7
311.87 11182.8
311.94 9789.08
312.01 13881.1
312.08 13106.1
312.15 11080
312.22 12491.6
312.29 11450.7
312.36 13804.8
312.43 14398.2
312.5 17197.8
312.57 12302.1
312.64 10602.3
312.71 11836.9
312.78 13908.4
312.85 13983.9
312.92 13255.6
312.99 12344.2
313.06 19161.7
313.13 8563.7
313.2 15336.7
313.27 15115.5
313.34 12358
313.41 11690.2
313.48 11887.3
313.55 12886
313.62 15649.1
313.69 15577.2
313.76 8793.64
313.83 17005.6
313.9 18754.8
313.97 16603.4
314.04 18707.9
314.11 15253.4
314.18 16789.8
314.25 18380
314.32 15225
314.39 11487
314.46 3953.56
314.53 4625.53
314.6 9501.82
314.67 11201.4
314.74 13356.3
314.81 9579.71
314.88 13269.3
314.95 17235.7
315.02 18623.1
315.09 11696.1
315.16 16545.3
315.23 13888.4
315.3 10336.8
315.37 16896.1
315.44 18210.1
315.51 11370.6
315.58 16615.7
315.65 13368.2
315.72 13639.7
315.79 6833.25
315.86 8573.16
315.93 9117.23
316 6645.18
316.07 10949.2
316.14 9786.1
316.21 8026.63
316.28 8548.41
316.35 8849.11
316.42 15372.3
316.49 11409.4
316.56 11770.9
316.63 14869.7
316.7 10917.6
316.77 12496.5
316.84 20302.7
316.91 12391
316.98 11647.8
317.05 13674.9
317.12 16098.2
317.19 21081.5
317.26 18175.4
317.33 19610.7
317.4 18339.7
317.47 17790.3
317.54 15956.7
317.61 14183.9
317.68 21250.4
317.75 20794.5
317.82 17559.6
317.89 11543.3
317.96 13873.3
318.03 5153.03
318.1 9511.3
318.17 11564.2
318.24 6813.58
318.31 10990.6
318.38 10706.7
318.45 14047
318.52 11452.4
318.59 11096.7
318.66 17981
318.73 12731.3
318.8 14913.2
318.87 15159.6
318.94 10944.9
319.01 24134.6
319.08 18572.3
319.15 15498.5
319.22 15127
319.29 9202.11
319.36 7284.81
319.43 12742.5
319.5 14868.7
319.57 15221
319.64 16536.5
319.71 11867.4
319.78 9408.43
319.85 14456.8
319.92 19263.5
319.99 23821.6
320.06 14437.9
320.13 9197.83
320.2 17853.1
320.27 23119.2
320.34 10573.2
320.41 20799.7
320.48 19080.3
320.55 25503.8
320.62 11737.2
320.69 20278.6
320.76 21672.6
320.83 20313.8
320.9 19345.3
320.97 15210.4
321 13345.3